{
  "resourceType": "Bundle",
  "id": "test-bundle-001",
  "type": "document",
  "timestamp": "2024-01-15T10:30:00Z",
  "identifier": {
    "system": "http://example.org/bundles",
    "value": "test-bundle-001"
  },
  "entry": [
    {
      "resource": {
        "resourceType": "Composition",
        "id": "comp-001",
        "status": "final",
        "type": {
          "coding": [
            {
              "system": "http://loinc.org",
              "code": "11502-2",
              "display": "Laboratory report"
            }
          ]
        },
        "subject": {
          "reference": "Patient/patient-001"
        },
        "date": "2024-01-15",
        "author": [
          {
            "reference": "Organization/lab-001"
          }
        ]
      }
    },
    {
      "resource": {
        "resourceType": "Patient",
        "id": "patient-001",
        "identifier": [
          {
            "system": "urn:oid:2.16.756.5.32",
            "value": "7560123456789"
          }
        ],
        "name": [
          {
            "family": "TestPatient",
            "given": ["Test"]
          }
        ]
      }
    },
    {
      "resource": {
        "resourceType": "Organization",
        "id": "lab-001",
        "name": "Test Laboratory",
        "identifier": [
          {
            "system": "urn:oid:2.51.1.3",
            "value": "7601001234567"
          }
        ]
      }
    },
    {
      "resource": {
        "resourceType": "Observation",
        "id": "obs-001",
        "status": "final",
        "code": {
          "coding": [
            {
              "system": "http://loinc.org",
              "code": "94500-6",
              "display": "SARS-CoV-2 RNA detected"
            }
          ]
        },
        "subject": {
          "reference": "Patient/patient-001"
        },
        "effectiveDateTime": "2024-01-15T09:00:00Z",
        "valueCodeableConcept": {
          "coding": [
            {
              "system": "http://snomed.info/sct",
              "code": "260373001",
              "display": "Detected"
            }
          ]
        },
        "specimen": {
          "reference": "Specimen/spec-001"
        }
      }
    },
    {
      "resource": {
        "resourceType": "Specimen",
        "id": "spec-001",
        "type": {
          "coding": [
            {
              "system": "http://snomed.info/sct",
              "code": "258500001",
              "display": "Nasopharyngeal swab"
            }
          ]
        },
        "subject": {
          "reference": "Patient/patient-001"
        },
        "collection": {
          "collectedDateTime": "2024-01-15T08:30:00Z"
        }
      }
    }
  ]
}